{"89jspm8wedn358v":{"data":[{"StartTime":1752000485255,"internal_node_id":"0.0-0.0","phase":"Consent","rt":4357.70000000298,"subject":"89jspm8wedn358v","time_elapsed":4369,"trial_index":0,"trial_type":"external-html","url":"forms/consent.html"},{"StartTime":1752000485255,"internal_node_id":"0.0-2.0","key_press":74,"phase":"Welcome","rt":3173.0999999940395,"stimulus":"<p>Welcome to the experiment. This experiment should take no longer than 5 minutes.</p> <p>Press any key to begin.</p>","subject":"89jspm8wedn358v","time_elapsed":7544,"trial_index":1,"trial_type":"html-keyboard-response"},{"StartTime":1752000485255,"internal_node_id":"0.0-3.0","subject":"89jspm8wedn358v","success":true,"time_elapsed":14238,"trial_index":2,"trial_type":"fullscreen"},{"StartTime":1752000485255,"fullscreen":false,"internal_node_id":"0.0-4.0-0.0","key_press":74,"phase":"Instructions","rt":2153.4000000059605,"stimulus":"<p>Please read these instructions carefully.</p><p>In this 'experiment' you will be presented with words in coloured text. You will be identifying the colour of that text by pressing keys on the keyboard. J = Red, K = Yellow, L = Green. Please use just your dominant hand to make responses. Also, when prompted to provide a word, respond by typing in the word 'clean'. You will have 2 seconds to respond to each stimuli.</p><p>Press any key to begin.</p>","subject":"89jspm8wedn358v","time_elapsed":16394,"trial_index":3,"trial_type":"html-keyboard-response"},{"StartTime":1752000485255,"fullscreen":false,"internal_node_id":"0.0-4.0-1.0","phase":"Attention_Check","responses":"{\"Attention_check\":\"clean\"}","rt":3254.4000000059605,"subject":"89jspm8wedn358v","time_elapsed":20657,"trial_index":4,"trial_type":"survey-text"},{"StartTime":1752000485255,"internal_node_id":"0.0-5.0","phase":"Fixation","stimulus":"<p id = 'fixation_stim', style = 'color: black; font-size: 60pt;'>+</p>","subject":"89jspm8wedn358v","time_elapsed":24424,"trial_index":5,"trial_type":"html-keyboard-response"},{"StartTime":1752000485255,"internal_node_id":"0.0-6.0-0.0","phase":"Fixation","stimulus":"<p id = 'fixation_stim', style = 'color: black; font-size: 60pt;'>+</p>","subject":"89jspm8wedn358v","time_elapsed":24688,"trial_index":6,"trial_type":"html-keyboard-response"},{"StartTime":1752000485255,"colour":"red","cor_response":"j","correct":true,"internal_node_id":"0.0-6.0-1.0","key_press":74,"phase":"Practice","rt":842.7000000029802,"stim_type":"Practice","stimulus":"<p id = 'contingency_stim', style = 'color: red; font-size: 60pt;'>YELLOW</p>","subject":"89jspm8wedn358v","time_elapsed":25532,"trial_index":7,"trial_type":"html-keyboard-response","word":"YELLOW"},{"StartTime":1752000485255,"internal_node_id":"0.0-6.0-2.0","phase":"Feedback","stimulus":"<p id = 'fixation_stim', style = 'color: white; font-size: 60pt;'>BLANK</p>","subject":"89jspm8wedn358v","time_elapsed":25535,"trial_index":8,"trial_type":"html-keyboard-response"},{"StartTime":1752000485255,"internal_node_id":"0.0-6.0-0.1","phase":"Fixation","stimulus":"<p id = 'fixation_stim', style = 'color: black; font-size: 60pt;'>+</p>","subject":"89jspm8wedn358v","time_elapsed":25799,"trial_index":9,"trial_type":"html-keyboard-response"},{"StartTime":1752000485255,"colour":"green","cor_response":"l","correct":true,"internal_node_id":"0.0-6.0-1.1","key_press":76,"phase":"Practice","rt":964.5,"stim_type":"Practice","stimulus":"<p id = 'contingency_stim', style = 'color: green; font-size: 60pt;'>GREEN</p>","subject":"89jspm8wedn358v","time_elapsed":26764,"trial_index":10,"trial_type":"html-keyboard-response","word":"GREEN"},{"StartTime":1752000485255,"internal_node_id":"0.0-6.0-2.1","phase":"Feedback","stimulus":"<p id = 'fixation_stim', style = 'color: white; font-size: 60pt;'>BLANK</p>","subject":"89jspm8wedn358v","time_elapsed":26767,"trial_index":11,"trial_type":"html-keyboard-response"},{"StartTime":1752000485255,"internal_node_id":"0.0-6.0-0.2","phase":"Fixation","stimulus":"<p id = 'fixation_stim', style = 'color: black; font-size: 60pt;'>+</p>","subject":"89jspm8wedn358v","time_elapsed":27033,"trial_index":12,"trial_type":"html-keyboard-response"},{"StartTime":1752000485255,"colour":"yellow","cor_response":"k","correct":true,"internal_node_id":"0.0-6.0-1.2","key_press":75,"phase":"Practice","rt":572.2999999970198,"stim_type":"Practice","stimulus":"<p id = 'contingency_stim', style = 'color: yellow; font-size: 60pt;'>YELLOW</p>","subject":"89jspm8wedn358v","time_elapsed":27606,"trial_index":13,"trial_type":"html-keyboard-response","word":"YELLOW"},{"StartTime":1752000485255,"internal_node_id":"0.0-6.0-2.2","phase":"Feedback","stimulus":"<p id = 'fixation_stim', style = 'color: white; font-size: 60pt;'>BLANK</p>","subject":"89jspm8wedn358v","time_elapsed":27608,"trial_index":14,"trial_type":"html-keyboard-response"},{"StartTime":1752000485255,"internal_node_id":"0.0-6.0-0.3","phase":"Fixation","stimulus":"<p id = 'fixation_stim', style = 'color: black; font-size: 60pt;'>+</p>","subject":"89jspm8wedn358v","time_elapsed":27860,"trial_index":15,"trial_type":"html-keyboard-response"},{"StartTime":1752000485255,"colour":"red","cor_response":"j","correct":true,"internal_node_id":"0.0-6.0-1.3","key_press":74,"phase":"Practice","rt":667.4000000059605,"stim_type":"Practice","stimulus":"<p id = 'contingency_stim', style = 'color: red; font-size: 60pt;'>BLACK</p>","subject":"89jspm8wedn358v","time_elapsed":28529,"trial_index":16,"trial_type":"html-keyboard-response","word":"BLACK"},{"StartTime":1752000485255,"internal_node_id":"0.0-6.0-2.3","phase":"Feedback","stimulus":"<p id = 'fixation_stim', style = 'color: white; font-size: 60pt;'>BLANK</p>","subject":"89jspm8wedn358v","time_elapsed":28531,"trial_index":17,"trial_type":"html-keyboard-response"},{"StartTime":1752000485255,"internal_node_id":"0.0-6.0-0.4","phase":"Fixation","stimulus":"<p id = 'fixation_stim', style = 'color: black; font-size: 60pt;'>+</p>","subject":"89jspm8wedn358v","time_elapsed":28785,"trial_index":18,"trial_type":"html-keyboard-response"},{"StartTime":1752000485255,"colour":"green","cor_response":"l","correct":true,"internal_node_id":"0.0-6.0-1.4","key_press":76,"phase":"Practice","rt":651.4000000059605,"stim_type":"Practice","stimulus":"<p id = 'contingency_stim', style = 'color: green; font-size: 60pt;'>YELLOW</p>","subject":"89jspm8wedn358v","time_elapsed":29438,"trial_index":19,"trial_type":"html-keyboard-response","word":"YELLOW"},{"StartTime":1752000485255,"internal_node_id":"0.0-6.0-2.4","phase":"Feedback","stimulus":"<p id = 'fixation_stim', style = 'color: white; font-size: 60pt;'>BLANK</p>","subject":"89jspm8wedn358v","time_elapsed":29441,"trial_index":20,"trial_type":"html-keyboard-response"},{"StartTime":1752000485255,"internal_node_id":"0.0-6.0-0.5","phase":"Fixation","stimulus":"<p id = 'fixation_stim', style = 'color: black; font-size: 60pt;'>+</p>","subject":"89jspm8wedn358v","time_elapsed":29706,"trial_index":21,"trial_type":"html-keyboard-response"},{"StartTime":1752000485255,"colour":"red","cor_response":"j","correct":true,"internal_node_id":"0.0-6.0-1.5","key_press":74,"phase":"Practice","rt":619.5,"stim_type":"Practice","stimulus":"<p id = 'contingency_stim', style = 'color: red; font-size: 60pt;'>RED</p>","subject":"89jspm8wedn358v","time_elapsed":30327,"trial_index":22,"trial_type":"html-keyboard-response","word":"RED"},{"StartTime":1752000485255,"internal_node_id":"0.0-6.0-2.5","phase":"Feedback","stimulus":"<p id = 'fixation_stim', style = 'color: white; font-size: 60pt;'>BLANK</p>","subject":"89jspm8wedn358v","time_elapsed":30329,"trial_index":23,"trial_type":"html-keyboard-response"},{"StartTime":1752000485255,"internal_node_id":"0.0-6.0-0.6","phase":"Fixation","stimulus":"<p id = 'fixation_stim', style = 'color: black; font-size: 60pt;'>+</p>","subject":"89jspm8wedn358v","time_elapsed":30580,"trial_index":24,"trial_type":"html-keyboard-response"},{"StartTime":1752000485255,"colour":"yellow","cor_response":"k","correct":true,"internal_node_id":"0.0-6.0-1.6","key_press":75,"phase":"Practice","rt":714.2999999970198,"stim_type":"Practice","stimulus":"<p id = 'contingency_stim', style = 'color: yellow; font-size: 60pt;'>RED</p>","subject":"89jspm8wedn358v","time_elapsed":31296,"trial_index":25,"trial_type":"html-keyboard-response","word":"RED"},{"StartTime":1752000485255,"internal_node_id":"0.0-6.0-2.6","phase":"Feedback","stimulus":"<p id = 'fixation_stim', style = 'color: white; font-size: 60pt;'>BLANK</p>","subject":"89jspm8wedn358v","time_elapsed":31298,"trial_index":26,"trial_type":"html-keyboard-response"},{"StartTime":1752000485255,"internal_node_id":"0.0-6.0-0.7","phase":"Fixation","stimulus":"<p id = 'fixation_stim', style = 'color: black; font-size: 60pt;'>+</p>","subject":"89jspm8wedn358v","time_elapsed":31549,"trial_index":27,"trial_type":"html-keyboard-response"},{"StartTime":1752000485255,"colour":"red","cor_response":"j","correct":true,"internal_node_id":"0.0-6.0-1.7","key_press":74,"phase":"Practice","rt":630.7999999970198,"stim_type":"Practice","stimulus":"<p id = 'contingency_stim', style = 'color: red; font-size: 60pt;'>GREEN</p>","subject":"89jspm8wedn358v","time_elapsed":32181,"trial_index":28,"trial_type":"html-keyboard-response","word":"GREEN"},{"StartTime":1752000485255,"internal_node_id":"0.0-6.0-2.7","phase":"Feedback","stimulus":"<p id = 'fixation_stim', style = 'color: white; font-size: 60pt;'>BLANK</p>","subject":"89jspm8wedn358v","time_elapsed":32184,"trial_index":29,"trial_type":"html-keyboard-response"},{"StartTime":1752000485255,"internal_node_id":"0.0-6.0-0.8","phase":"Fixation","stimulus":"<p id = 'fixation_stim', style = 'color: black; font-size: 60pt;'>+</p>","subject":"89jspm8wedn358v","time_elapsed":32435,"trial_index":30,"trial_type":"html-keyboard-response"},{"StartTime":1752000485255,"colour":"green","cor_response":"l","correct":true,"internal_node_id":"0.0-6.0-1.8","key_press":76,"phase":"Practice","rt":852.6999999880791,"stim_type":"Practice","stimulus":"<p id = 'contingency_stim', style = 'color: green; font-size: 60pt;'>RED</p>","subject":"89jspm8wedn358v","time_elapsed":33289,"trial_index":31,"trial_type":"html-keyboard-response","word":"RED"},{"StartTime":1752000485255,"internal_node_id":"0.0-6.0-2.8","phase":"Feedback","stimulus":"<p id = 'fixation_stim', style = 'color: white; font-size: 60pt;'>BLANK</p>","subject":"89jspm8wedn358v","time_elapsed":33292,"trial_index":32,"trial_type":"html-keyboard-response"},{"StartTime":1752000485255,"internal_node_id":"0.0-6.0-0.9","phase":"Fixation","stimulus":"<p id = 'fixation_stim', style = 'color: black; font-size: 60pt;'>+</p>","subject":"89jspm8wedn358v","time_elapsed":33543,"trial_index":33,"trial_type":"html-keyboard-response"},{"StartTime":1752000485255,"colour":"yellow","cor_response":"k","correct":true,"internal_node_id":"0.0-6.0-1.9","key_press":75,"phase":"Practice","rt":754.7000000029802,"stim_type":"Practice","stimulus":"<p id = 'contingency_stim', style = 'color: yellow; font-size: 60pt;'>GREEN</p>","subject":"89jspm8wedn358v","time_elapsed":34299,"trial_index":34,"trial_type":"html-keyboard-response","word":"GREEN"},{"StartTime":1752000485255,"internal_node_id":"0.0-6.0-2.9","phase":"Feedback","stimulus":"<p id = 'fixation_stim', style = 'color: white; font-size: 60pt;'>BLANK</p>","subject":"89jspm8wedn358v","time_elapsed":34301,"trial_index":35,"trial_type":"html-keyboard-response"},{"StartTime":1752000485255,"internal_node_id":"0.0-6.0-0.10","phase":"Fixation","stimulus":"<p id = 'fixation_stim', style = 'color: black; font-size: 60pt;'>+</p>","subject":"89jspm8wedn358v","time_elapsed":34553,"trial_index":36,"trial_type":"html-keyboard-response"},{"StartTime":1752000485255,"colour":"green","cor_response":"l","correct":true,"internal_node_id":"0.0-6.0-1.10","key_press":76,"phase":"Practice","rt":719.7999999970198,"stim_type":"Practice","stimulus":"<p id = 'contingency_stim', style = 'color: green; font-size: 60pt;'>BLACK</p>","subject":"89jspm8wedn358v","time_elapsed":35273,"trial_index":37,"trial_type":"html-keyboard-response","word":"BLACK"},{"StartTime":1752000485255,"internal_node_id":"0.0-6.0-2.10","phase":"Feedback","stimulus":"<p id = 'fixation_stim', style = 'color: white; font-size: 60pt;'>BLANK</p>","subject":"89jspm8wedn358v","time_elapsed":35275,"trial_index":38,"trial_type":"html-keyboard-response"},{"StartTime":1752000485255,"internal_node_id":"0.0-6.0-0.11","phase":"Fixation","stimulus":"<p id = 'fixation_stim', style = 'color: black; font-size: 60pt;'>+</p>","subject":"89jspm8wedn358v","time_elapsed":35526,"trial_index":39,"trial_type":"html-keyboard-response"},{"StartTime":1752000485255,"colour":"yellow","cor_response":"k","correct":true,"internal_node_id":"0.0-6.0-1.11","key_press":75,"phase":"Practice","rt":759,"stim_type":"Practice","stimulus":"<p id = 'contingency_stim', style = 'color: yellow; font-size: 60pt;'>BLACK</p>","subject":"89jspm8wedn358v","time_elapsed":36286,"trial_index":40,"trial_type":"html-keyboard-response","word":"BLACK"},{"StartTime":1752000485255,"internal_node_id":"0.0-6.0-2.11","phase":"Feedback","stimulus":"<p id = 'fixation_stim', style = 'color: white; font-size: 60pt;'>BLANK</p>","subject":"89jspm8wedn358v","time_elapsed":36288,"trial_index":41,"trial_type":"html-keyboard-response"},{"StartTime":1752000485255,"fullscreen":false,"internal_node_id":"0.0-7.0-0.0-0.0","phase":"Survey","responses":"{\"Par_Age\":\"23\"}","rt":3684.5,"subject":"89jspm8wedn358v","time_elapsed":39976,"trial_index":42,"trial_type":"survey-text"},{"StartTime":1752000485255,"fullscreen":false,"internal_node_id":"0.0-7.0-1.0","phase":"Survey","responses":"{\"Gender_Q\":\"Female\",\"other_gender_fill_in\":\"\"}","rt":3217.9000000059605,"subject":"89jspm8wedn358v","time_elapsed":43196,"trial_index":43,"trial_type":"survey-html-form"},{"StartTime":1752000485255,"fullscreen":false,"internal_node_id":"0.0-7.0-2.0","phase":"Survey","responses":"{\"Country_Q\":\"Canada\",\"other_country_fill_in\":\"\"}","rt":3313.2999999970198,"subject":"89jspm8wedn358v","time_elapsed":46512,"trial_index":44,"trial_type":"survey-html-form"},{"StartTime":1752000485255,"fullscreen":false,"internal_node_id":"0.0-7.0-3.0","phase":"Survey","responses":"{\"Par_ID\":\"\"}","rt":5985.0999999940395,"subject":"89jspm8wedn358v","time_elapsed":52507,"trial_index":45,"trial_type":"survey-text"},{"StartTime":1752000485255,"internal_node_id":"0.0-8.0","subject":"89jspm8wedn358v","success":true,"time_elapsed":53509,"trial_index":46,"trial_type":"fullscreen"}]}}